DC_Applied_Bias	Amplitude	Phase
V	a.u.	deg
May 2023	May 2023	May 2023
0	191.664	44.6111
0.02	180.983	42.7225
0.0400001	178.416	44.6459
0.0600001	171.283	45.123
0.0799999	161.048	43.4686
0.0999999	157.678	43.6307
0.12	152.258	44.8212
0.14	141.755	42.1912
0.16	133.321	43.7232
0.18	133.749	45.6042
0.2	113.797	42.1247
0.22	112.923	45.4109
0.24	107.057	45.7107
0.26	102.028	45.4653
0.28	94.8959	41.7696
0.3	89.9032	45.4109
0.32	76.6371	43.7448
0.34	79.1334	45.8991
0.36	70.9669	43.8957
0.38	62.0693	46.0253
0.4	61.6235	42.5738
0.42	46.8239	48.5596
0.44	39.1744	48.1109
0.46	47.1092	57.9789
0.48	38.3364	51.2957
0.5	31.6141	66.6109
0.52	20.8621	72.452
0.54	24.1965	80.2559
0.56	13.07	77.6124
0.58	15.388	79.9416
0.6	15.6555	137.394
0.62	19.5248	97.2292
0.64	23.5011	25.9334
0.66	30.5621	176.701
0.68	36.054	179.74
0.7	36.3036	205.399
0.72	47.7154	209.927
0.74	58.6814	215.758
0.76	54.7051	209.465
0.78	59.4125	209.923
0.8	74.0516	213.993
0.82	81.1839	213.481
0.84	90.6521	215.325
0.86	93.5407	218.083
0.88	106.771	215.56
0.9	113.832	219.808
0.92	117.648	215.811
0.94	122.034	217.343
0.96	126.902	217.235
0.98	136.834	218.91
1	143.574	218.596
1.02	145.732	217.218
1.04	156.234	217.142
1.06	163.277	218.683
1.08	162.314	216.99
1.1	170.962	218.625
1.12	176.561	219.358
1.14	190.933	219.589
1.16	191.058	219.805
1.18	209.62	219.149
1.2	205.768	218.374
1.22	214.363	218.957
1.24	219.819	218.571
1.26	224.776	219.566
1.28	239.255	219.872
1.3	252.432	218.979
1.32	250.024	218.967
1.34	259.707	219.412
1.36	268.23	219.693
1.38	271.6	220.021
1.4	274.881	220.375
1.42	291.053	220.208
1.44	282.619	219.907
1.46	293.122	219.928
1.48	305.675	220.199
1.5	303.909	219.714
1.52	312.825	219.988
1.54	315.036	219.953
1.56	331.066	220.112
1.58	335.22	220.397
1.6	347.434	220.127
1.62	343.226	220.435
1.64	354.139	220.494
1.66	362.145	219.682
1.68	374.145	220.13
1.7	377.426	220.371
1.72	370.115	220.113
1.74	377.087	220.058
1.76	379.691	219.229
1.78	397.575	219.997
1.8	396.933	219.864
1.82	410.235	219.911
1.84	406.686	219.727
1.86	415.869	219.615
1.88	424.553	219.304
1.9	430.829	219.835
1.92	429.599	220.1
1.94	430.455	219.472
1.96	437.249	219.596
1.98	441.974	219.402
2	442.58	219.826
2	448.892	220.321
1.98	456.167	220.315
1.96	446.342	220.453
1.94	437.944	220.026
1.92	431.81	219.672
1.9	413.587	219.729
1.88	410.395	219.489
1.86	408.273	220.341
1.84	407.738	220.361
1.82	405.01	220.048
1.8	400.018	220.262
1.78	392.654	219.843
1.76	386.983	220.371
1.74	380.564	219.992
1.72	371.898	220.522
1.7	365.444	220.065
1.68	364.677	219.882
1.66	357.438	220.449
1.64	348.397	220.086
1.62	340.998	219.429
1.6	333.348	219.789
1.58	322.525	219.492
1.56	326.037	219.395
1.54	313.431	219.539
1.52	311.47	219.676
1.5	296.902	220.047
1.48	299.398	220.415
1.46	291.749	219.631
1.44	279.356	220.505
1.42	275.416	219.465
1.4	275.059	220.291
1.38	264.467	219.897
1.36	262.595	220.434
1.34	251.38	219.05
1.32	247.207	219.205
1.3	240.877	220.237
1.28	231.356	219.62
1.26	226.916	220.425
1.24	218.464	219.521
1.22	211.028	219.312
1.2	198.386	219.712
1.18	189.524	219.729
1.16	193.073	218.536
1.14	178.79	218.311
1.12	180.27	218.7
1.1	171.872	218.692
1.08	164.115	218.869
1.06	161.084	220.465
1.04	148.745	218.054
1.02	152.971	218.331
1	151.42	218.082
0.98	135.925	219.487
0.96	129.327	219.441
0.94	125.298	220.541
0.92	117.202	217.416
0.9	114.296	216.856
0.88	111.675	219.37
0.86	93.4159	217.759
0.84	83.0027	219.115
0.82	78.2953	216.918
0.8	71.056	211.824
0.78	60.7319	213.828
0.76	55.775	209.459
0.74	50.2652	221.613
0.72	40.4939	210.779
0.7	38.9783	213.121
0.68	35.6617	196.344
0.66	33.9678	210.948
0.64	27.4417	157.416
0.62	19.2395	105.584
0.6	18.2588	69.5819
0.58	14.3895	61.7287
0.56	12.3568	49.3827
0.54	18.2231	64.9378
0.52	29.2248	68.2428
0.5	32.9336	49.0672
0.48	41.6172	48.321
0.46	42.7763	58.8388
0.44	53.4926	47.9133
0.42	53.4391	44.7173
0.4	58.5744	47.6398
0.38	62.6577	44.0516
0.36	77.7604	47.0912
0.34	79.8823	42.1047
0.32	87.6744	42.4122
0.3	101.119	42.0529
0.28	98.7474	43.7296
0.26	106.753	43.1423
0.24	113.44	43.8735
0.22	112.263	41.2172
0.2	127.812	42.304
0.18	134.249	43.4099
0.16	135.247	41.268
0.14	144.341	42.7701
0.12	151.527	40.8058
0.0999999	156.626	41.2162
0.0799999	160.193	39.8281
0.0600001	168.537	42.1729
0.0400001	173.976	40.2747
0.02	180.217	40.8707
0	190.434	41.822
-0.02	193.394	40.1645
-0.0399999	201.257	41.2075
-0.06	212.009	40.9953
-0.08	218.446	39.599
-0.1	221.37	39.7174
-0.12	237.489	39.8885
-0.14	241.84	39.9688
-0.16	247.047	39.8682
-0.18	254.339	39.8801
-0.2	262.203	40.4783
-0.22	268.622	39.9451
-0.24	276.592	40.1344
-0.26	278.589	40.2258
-0.28	284.26	39.4843
-0.3	297.223	40.0784
-0.32	301.68	39.954
-0.34	308.67	40.2114
-0.36	312.896	39.9932
-0.38	309.811	39.6494
-0.4	325.984	40.1667
-0.42	329.443	40.1728
-0.44	339.214	40.2197
-0.46	345.527	40.2716
-0.48	353.889	40.234
-0.5	359.096	40.3811
-0.52	365.301	39.5991
-0.54	375.786	40.5117
-0.56	390.567	40.2658
-0.58	394.258	40.3418
-0.6	399.679	40.544
-0.62	407.293	40.7036
-0.64	413.355	40.7952
-0.66	420.381	40.496
-0.68	421.468	40.7164
-0.7	429.385	40.4287
-0.72	441.492	40.5205
-0.74	442.188	39.9856
-0.76	448.767	40.7072
-0.78	454.705	40.5456
-0.8	465.207	40.3664
-0.82	472.821	40.1932
-0.84	476.262	40.75
-0.86	484.518	40.6718
-0.88	489.903	40.522
-0.9	494.272	40.5601
-0.92	499.46	40.7297
-0.94	505.576	40.8724
-0.96	519.306	40.4891
-0.98	522.551	40.4202
-1	527.473	41.282
-1.02	532.751	41.3075
-1.04	537.155	41.242
-1.06	548.388	40.6489
-1.08	559.497	40.8913
-1.1	564.151	40.9789
-1.12	567.146	41.4485
-1.14	571.854	42.0138
-1.16	562.475	40.7399
-1.18	579.806	41.0714
-1.2	585.78	41.237
-1.22	588.169	41.3754
-1.24	604.128	41.6817
-1.26	605.483	41.2562
-1.28	617.857	41.3229
-1.3	620.978	41.1755
-1.32	630.981	41.2497
-1.34	640.824	41.8158
-1.36	649.614	41.7334
-1.38	646.708	41.7029
-1.4	657.495	41.6349
-1.42	665.555	41.8844
-1.44	669.496	41.7482
-1.46	685.74	42.0911
-1.48	686.435	42.1446
-1.5	692.034	41.7162
-1.52	698.382	41.9532
-1.54	713.342	42.0035
-1.56	712.129	42.181
-1.58	728.73	42.0615
-1.6	730.388	42.0706
-1.62	740.605	41.9413
-1.64	749.77	42.4346
-1.66	764.088	42.5398
-1.68	764.516	42.7256
-1.7	771.417	42.5451
-1.72	767.244	42.2238
-1.74	771.649	42.3601
-1.76	787.411	42.3157
-1.78	785.789	42.0329
-1.8	797.343	42.3105
-1.82	796.113	41.8357
-1.84	806.401	42.0964
-1.86	807.328	42.1007
-1.88	815.727	42.1971
-1.9	824.963	42.5424
-1.92	825.73	42.1678
-1.94	835.305	42.0854
-1.96	835.893	42.0214
-1.98	841.938	42.1808
-2	851.62	42.1793
-2	856.238	42.4278
-1.98	847.127	42.373
-1.96	834.306	42.1411
-1.94	829.652	42.3561
-1.92	830.134	42.4716
-1.9	812.107	42.0266
-1.88	819.952	42.3018
-1.86	812.089	42.5755
-1.84	803.833	42.5884
-1.82	798.431	42.5421
-1.8	791.173	42.6587
-1.78	777.729	42.322
-1.76	773.378	42.1144
-1.74	779.744	42.1225
-1.72	763.108	41.83
-1.7	759.274	41.8784
-1.68	749.235	42.4292
-1.66	751.482	42.5095
-1.64	740.124	42.0715
-1.62	740.748	42.5516
-1.6	731.012	42.4545
-1.58	713.609	41.782
-1.56	709.223	42.6923
-1.54	703.446	42.448
-1.52	692.462	42.1917
-1.5	687.291	42.285
-1.48	678.09	42.0738
-1.46	672.866	42.2615
-1.44	678.268	42.0911
-1.42	669.852	42.6088
-1.4	656.604	42.1756
-1.38	655.837	42.6297
-1.36	646.761	42.1495
-1.34	637.454	42.4384
-1.32	627.807	42.2174
-1.3	629.091	42.112
-1.28	618.464	42.3158
-1.26	610.422	42.1522
-1.24	606.998	41.7381
-1.22	596.835	42.1844
-1.2	595.105	42.0155
-1.18	581.732	41.805
-1.16	581.197	41.7788
-1.14	572.656	41.7536
-1.12	567.218	42.0128
-1.1	558.481	41.8743
-1.08	550.831	41.9342
-1.06	547.425	41.7159
-1.04	537.957	41.8397
-1.02	522.855	41.4955
-1	519.199	41.4732
-0.98	521.375	41.5081
-0.96	510.747	41.0304
-0.94	511.354	41.7597
-0.92	496.322	41.2062
-0.9	489.154	40.9118
-0.88	479.508	41.5776
-0.86	471.769	41.4746
-0.84	470.931	41.4758
-0.82	463.032	41.2736
-0.8	458.592	41.5229
-0.78	451.585	41.4075
-0.76	446.289	40.8782
-0.74	431.311	41.0722
-0.72	430.188	41.7413
-0.7	422.003	40.8609
-0.68	415.245	41.4537
-0.66	410.146	41.1102
-0.64	399.197	41.0428
-0.62	395.203	41.6445
-0.6	385.539	41.5556
-0.58	380.707	40.0178
-0.56	372.344	40.4051
-0.54	372.469	41.1732
-0.52	365.372	41.1414
-0.5	353.443	40.7011
-0.48	347.791	40.3809
-0.46	340.463	41.0247
-0.44	330.388	40.7917
-0.42	328.088	40.9689
-0.4	319.333	41.128
-0.38	310.988	39.8739
-0.36	305.193	40.5177
-0.34	294.619	39.9962
-0.32	282.851	40.2415
-0.3	282.798	40.6015
-0.28	271.154	39.9018
-0.26	270.138	40.415
-0.24	262.827	40.0589
-0.22	255.249	41.2682
-0.2	249.133	40.8078
-0.18	244.033	41.419
-0.16	240.414	41.4379
-0.14	233.584	40.9834
-0.12	221.852	41.3742
-0.1	215.236	41.4112
-0.08	213.578	41.9082
-0.06	202.452	40.953
-0.0399999	194.196	42.3238
-0.02	191.29	41.6144
0	--	0
0	--	0
0	--	0
0	--	0
0	--	0
